{
  "practitioner": [
    {
      "fullUrl" : "http://hl7.org/fhir/Practitioner/1",
      "resource" : {
        "resourceType" : "Practitioner",
        "id" : "1",
        "text" : {
          "status" : "generated",
          "div" : "<div xmlns=\"http://www.w3.org/1999/xhtml\">Dr. Beverly Crusher</div>"
        },
        "identifier" : [{
          "type" : {
            "coding" : [{
              "system" : "http://terminology.hl7.org/CodeSystem/v2-0203",
              "code" : "SS"
            }]
          },
          "system" : "http://hl7.org/fhir/sid/us-ssn",
          "value" : "333333333"
        },
          {
            "type" : {
              "coding" : [{
                "system" : "http://terminology.hl7.org/CodeSystem/v2-0203",
                "code" : "NPI"
              }]
            },
            "system" : "http://hl7.org/fhir/sid/us-npi",
            "value" : "1122334499"
          },
          {
            "type" : {
              "coding" : [{
                "system" : "http://terminology.hl7.org/CodeSystem/v2-0203",
                "code" : "DEA"
              }]
            },
            "system" : "https://www.deanumber.com/",
            "value" : "F91234567-001AB"
          }],
        "name" : [{
          "family" : "Beverly",
          "given" : ["Crusher"],
          "prefix" : ["Dr"]
        }],
        "gender" : "female"
      }
    },
    {
      "fullUrl" : "http://hl7.org/fhir/Practitioner/2",
      "resource" : {
        "resourceType" : "Practitioner",
        "id" : "2",
        "meta" : {
          "lastUpdated" : "2012-05-29T23:45:32Z"
        },
        "text" : {
          "status" : "generated",
          "div" : "<div xmlns=\"http://www.w3.org/1999/xhtml\">Brace, Ben. SSN:\n            222668888</div>"
        },
        "identifier" : [{
          "type" : {
            "coding" : [{
              "system" : "http://terminology.hl7.org/CodeSystem/v2-0203",
              "code" : "SS"
            }]
          },
          "system" : "http://hl7.org/fhir/sid/us-ssn",
          "value" : "222668888"
        }],
        "name" : [{
          "use" : "official",
          "family" : "Brace",
          "given" : ["Ben"]
        }],
        "telecom" : [{
          "system" : "phone",
          "value" : "555-555-1055",
          "use" : "work"
        }],
        "gender" : "male",
        "address" : [{
          "use" : "home",
          "line" : ["1053 Healthcare Drive"]
        }]
      }
    },
    {
      "fullUrl" : "http://hl7.org/fhir/Practitioner/3",
      "resource" : {
        "resourceType" : "Practitioner",
        "id" : "3",
        "meta" : {
          "lastUpdated" : "2012-05-29T23:45:32Z"
        },
        "text" : {
          "status" : "generated",
          "div" : "<div xmlns=\"http://www.w3.org/1999/xhtml\">Specs, Sylvia. SSN:\n            222669999</div>"
        },
        "identifier" : [{
          "type" : {
            "coding" : [{
              "system" : "http://terminology.hl7.org/CodeSystem/v2-0203",
              "code" : "SS"
            }]
          },
          "system" : "http://hl7.org/fhir/sid/us-ssn",
          "value" : "222669999"
        }],
        "name" : [{
          "use" : "official",
          "family" : "Specs",
          "given" : ["Sylvia"]
        }],
        "telecom" : [{
          "system" : "phone",
          "value" : "555-555-1056",
          "use" : "work"
        }],
        "gender" : "female",
        "address" : [{
          "use" : "home",
          "line" : ["1054 Healthcare Drive"]
        }]
      }
    },
    {
      "fullUrl" : "http://hl7.org/fhir/Practitioner/4",
      "resource" : {
        "resourceType" : "Practitioner",
        "id" : "4",
        "meta" : {
          "lastUpdated" : "2012-05-29T23:45:32Z"
        },
        "text" : {
          "status" : "generated",
          "div" : "<div xmlns=\"http://www.w3.org/1999/xhtml\">Script, Susan. SSN:\n            333222222</div>"
        },
        "identifier" : [{
          "type" : {
            "coding" : [{
              "system" : "http://terminology.hl7.org/CodeSystem/v2-0203",
              "code" : "SS"
            }]
          },
          "system" : "http://hl7.org/fhir/sid/us-ssn",
          "value" : "333222222"
        }],
        "name" : [{
          "use" : "official",
          "family" : "Script",
          "given" : ["Susan"]
        }],
        "telecom" : [{
          "system" : "phone",
          "value" : "555-555-1016",
          "use" : "work"
        }],
        "gender" : "female",
        "address" : [{
          "use" : "home",
          "line" : ["1016 Healthcare Drive"]
        }]
      }
    },
    {
      "fullUrl" : "http://hl7.org/fhir/Practitioner/5",
      "resource" : {
        "resourceType" : "Practitioner",
        "id" : "5",
        "meta" : {
          "lastUpdated" : "2012-05-29T23:45:32Z"
        },
        "text" : {
          "status" : "generated",
          "div" : "<div xmlns=\"http://www.w3.org/1999/xhtml\">Bunion, Paul. SSN:\n            222772222</div>"
        },
        "identifier" : [{
          "type" : {
            "coding" : [{
              "system" : "http://terminology.hl7.org/CodeSystem/v2-0203",
              "code" : "SS"
            }]
          },
          "system" : "http://hl7.org/fhir/sid/us-ssn",
          "value" : "222772222"
        }],
        "name" : [{
          "use" : "official",
          "family" : "Bunion",
          "given" : ["Paul"]
        }],
        "telecom" : [{
          "system" : "phone",
          "value" : "555-555-1057",
          "use" : "work"
        }],
        "gender" : "male",
        "address" : [{
          "use" : "home",
          "line" : ["1055 Healthcare Drive"]
        }]
      }
    },
    {
      "fullUrl" : "http://hl7.org/fhir/Practitioner/6",
      "resource" : {
        "resourceType" : "Practitioner",
        "id" : "6",
        "meta" : {
          "lastUpdated" : "2012-05-29T23:45:32Z"
        },
        "text" : {
          "status" : "generated",
          "div" : "<div xmlns=\"http://www.w3.org/1999/xhtml\">Listener, Larry. SSN:\n            222773333</div>"
        },
        "identifier" : [{
          "type" : {
            "coding" : [{
              "system" : "http://terminology.hl7.org/CodeSystem/v2-0203",
              "code" : "SS"
            }]
          },
          "system" : "http://hl7.org/fhir/sid/us-ssn",
          "value" : "222773333"
        }],
        "name" : [{
          "use" : "official",
          "family" : "Listener",
          "given" : ["Larry"]
        }],
        "telecom" : [{
          "system" : "phone",
          "value" : "555-555-1058",
          "use" : "work"
        }],
        "gender" : "male",
        "address" : [{
          "use" : "home",
          "line" : ["1056 Healthcare Drive"]
        }]
      }
    },
    {
      "fullUrl" : "http://hl7.org/fhir/Practitioner/7",
      "resource" : {
        "resourceType" : "Practitioner",
        "id" : "7",
        "meta" : {
          "lastUpdated" : "2012-05-29T23:45:32Z"
        },
        "text" : {
          "status" : "generated",
          "div" : "<div xmlns=\"http://www.w3.org/1999/xhtml\">Beaker, Bill. SSN:\n            333444444</div>"
        },
        "identifier" : [{
          "type" : {
            "coding" : [{
              "system" : "http://terminology.hl7.org/CodeSystem/v2-0203",
              "code" : "SS"
            }]
          },
          "system" : "http://hl7.org/fhir/sid/us-ssn",
          "value" : "333444444"
        }],
        "name" : [{
          "use" : "official",
          "family" : "Beaker",
          "given" : ["Bill"]
        }],
        "telecom" : [{
          "system" : "phone",
          "value" : "555-555-1017",
          "use" : "work"
        }],
        "gender" : "male",
        "address" : [{
          "use" : "home",
          "line" : ["1017 Healthcare Drive"]
        }]
      }
    },
    {
      "fullUrl" : "http://hl7.org/fhir/Practitioner/8",
      "resource" : {
        "resourceType" : "Practitioner",
        "id" : "8",
        "meta" : {
          "lastUpdated" : "2012-05-29T23:45:32Z"
        },
        "text" : {
          "status" : "generated",
          "div" : "<div xmlns=\"http://www.w3.org/1999/xhtml\">Chow, Connie. SSN:\n            333555555</div>"
        },
        "identifier" : [{
          "type" : {
            "coding" : [{
              "system" : "http://terminology.hl7.org/CodeSystem/v2-0203",
              "code" : "SS"
            }]
          },
          "system" : "http://hl7.org/fhir/sid/us-ssn",
          "value" : "333555555"
        }],
        "name" : [{
          "use" : "official",
          "family" : "Chow",
          "given" : ["Connie"]
        }],
        "telecom" : [{
          "system" : "phone",
          "value" : "555-555-1018",
          "use" : "work"
        }],
        "gender" : "female",
        "address" : [{
          "use" : "home",
          "line" : ["1018 Healthcare Drive"]
        }]
      }
    },
    {
      "fullUrl" : "http://hl7.org/fhir/Practitioner/9",
      "resource" : {
        "resourceType" : "Practitioner",
        "id" : "9",
        "meta" : {
          "lastUpdated" : "2012-05-29T23:45:32Z"
        },
        "text" : {
          "status" : "generated",
          "div" : "<div xmlns=\"http://www.w3.org/1999/xhtml\">teHelper. SSN: 000111111</div>"
        },
        "identifier" : [{
          "type" : {
            "coding" : [{
              "system" : "http://terminology.hl7.org/CodeSystem/v2-0203",
              "code" : "SS"
            }]
          },
          "system" : "http://hl7.org/fhir/sid/us-ssn",
          "value" : "000111111"
        }],
        "name" : [{
          "use" : "official",
          "family" : "Helper",
          "given" : ["Helen"]
        }],
        "telecom" : [{
          "system" : "phone",
          "value" : "555-555-1019",
          "use" : "work"
        }],
        "gender" : "female",
        "address" : [{
          "use" : "home",
          "line" : ["1019 Healthcare Drive"]
        }]
      }
    },
    {
      "fullUrl" : "http://hl7.org/fhir/Practitioner/10",
      "resource" : {
        "resourceType" : "Practitioner",
        "id" : "10",
        "meta" : {
          "lastUpdated" : "2012-05-29T23:45:32Z"
        },
        "text" : {
          "status" : "generated",
          "div" : "<div xmlns=\"http://www.w3.org/1999/xhtml\">Player, Pamela. SSN:\n            222776666</div>"
        },
        "identifier" : [{
          "type" : {
            "coding" : [{
              "system" : "http://terminology.hl7.org/CodeSystem/v2-0203",
              "code" : "SS"
            }]
          },
          "system" : "http://hl7.org/fhir/sid/us-ssn",
          "value" : "222776666"
        }],
        "name" : [{
          "use" : "official",
          "family" : "Player",
          "given" : ["Pamela"]
        }],
        "telecom" : [{
          "system" : "phone",
          "value" : "555-555-1059",
          "use" : "work"
        }],
        "gender" : "female",
        "address" : [{
          "use" : "home",
          "line" : ["1057 Healthcare Drive"]
        }]
      }
    },
    {
      "fullUrl" : "http://hl7.org/fhir/Practitioner/11",
      "resource" : {
        "resourceType" : "Practitioner",
        "id" : "11",
        "meta" : {
          "lastUpdated" : "2012-05-29T23:45:32Z"
        },
        "text" : {
          "status" : "generated",
          "div" : "<div xmlns=\"http://www.w3.org/1999/xhtml\">Stretcher, Seth. SSN:\n            222778888</div>"
        },
        "identifier" : [{
          "type" : {
            "coding" : [{
              "system" : "http://terminology.hl7.org/CodeSystem/v2-0203",
              "code" : "SS"
            }]
          },
          "system" : "http://hl7.org/fhir/sid/us-ssn",
          "value" : "222778888"
        }],
        "name" : [{
          "use" : "official",
          "family" : "Stretcher",
          "given" : ["Seth"]
        }],
        "telecom" : [{
          "system" : "phone",
          "value" : "555-555-1060",
          "use" : "work"
        }],
        "gender" : "male",
        "address" : [{
          "use" : "home",
          "line" : ["1058 Healthcare Drive"]
        }]
      }
    },
    {
      "fullUrl" : "http://hl7.org/fhir/Practitioner/12",
      "resource" : {
        "resourceType" : "Practitioner",
        "id" : "12",
        "meta" : {
          "lastUpdated" : "2012-05-29T23:45:32Z"
        },
        "text" : {
          "status" : "generated",
          "div" : "<div xmlns=\"http://www.w3.org/1999/xhtml\">Enter Ellen, ElleSSN:\n            333777777</div>"
        },
        "identifier" : [{
          "type" : {
            "coding" : [{
              "system" : "http://terminology.hl7.org/CodeSystem/v2-0203",
              "code" : "SS"
            }]
          },
          "system" : "http://hl7.org/fhir/sid/us-ssn",
          "value" : "333777777"
        }],
        "name" : [{
          "use" : "official",
          "family" : "Enter",
          "given" : ["Ellen"]
        }],
        "telecom" : [{
          "system" : "phone",
          "value" : "555-555-1020",
          "use" : "work"
        }],
        "gender" : "female",
        "address" : [{
          "use" : "home",
          "line" : ["1058 Healthcare Drive"]
        }]
      }
    },
    {
      "fullUrl" : "http://hl7.org/fhir/Practitioner/13",
      "resource" : {
        "resourceType" : "Practitioner",
        "id" : "13",
        "meta" : {
          "lastUpdated" : "2012-05-29T23:45:32Z"
        },
        "text" : {
          "status" : "generated",
          "div" : "<div xmlns=\"http://www.w3.org/1999/xhtml\">Seven, Henry. SSN:\n            333333333</div>"
        },
        "identifier" : [{
          "type" : {
            "coding" : [{
              "system" : "http://terminology.hl7.org/CodeSystem/v2-0203",
              "code" : "SS"
            }]
          },
          "system" : "http://hl7.org/fhir/sid/us-ssn",
          "value" : "333333333"
        }],
        "name" : [{
          "use" : "official",
          "family" : "Seven",
          "given" : ["Henry"]
        }],
        "telecom" : [{
          "system" : "phone",
          "value" : "555-555-1002",
          "use" : "work"
        }],
        "gender" : "male",
        "address" : [{
          "use" : "home",
          "line" : ["1002 Healthcare Drive"]
        }]
      }
    },
    {
      "fullUrl" : "http://hl7.org/fhir/Practitioner/14",
      "resource" : {
        "resourceType" : "Practitioner",
        "id" : "14",
        "meta" : {
          "lastUpdated" : "2012-05-29T23:45:32Z"
        },
        "text" : {
          "status" : "generated",
          "div" : "<div xmlns=\"http://www.w3.org/1999/xhtml\">Assigned, Amanda. SSN:\n            33344444</div>"
        },
        "identifier" : [{
          "type" : {
            "coding" : [{
              "system" : "http://terminology.hl7.org/CodeSystem/v2-0203",
              "code" : "SS"
            }]
          },
          "system" : "http://hl7.org/fhir/sid/us-ssn",
          "value" : "33344444"
        }],
        "name" : [{
          "use" : "official",
          "family" : "Assigned",
          "given" : ["Amanda"]
        }],
        "telecom" : [{
          "system" : "phone",
          "value" : "555-555-1021",
          "use" : "work"
        }],
        "gender" : "female",
        "address" : [{
          "use" : "home",
          "line" : ["1020 Healthcare Drive"]
        }]
      }
    },
    {
      "fullUrl" : "http://hl7.org/fhir/Practitioner/15",
      "resource" : {
        "resourceType" : "Practitioner",
        "id" : "15",
        "meta" : {
          "lastUpdated" : "2012-05-29T23:45:32Z"
        },
        "text" : {
          "status" : "generated",
          "div" : "<div xmlns=\"http://www.w3.org/1999/xhtml\">Hippocrates, Harold. SSN:\n            444444444</div>"
        },
        "identifier" : [{
          "type" : {
            "coding" : [{
              "system" : "http://terminology.hl7.org/CodeSystem/v2-0203",
              "code" : "SS"
            }]
          },
          "system" : "http://hl7.org/fhir/sid/us-ssn",
          "value" : "444444444"
        }],
        "name" : [{
          "use" : "official",
          "family" : "Hippocrates",
          "given" : ["Harold"]
        }],
        "telecom" : [{
          "system" : "phone",
          "value" : "555-555-1003",
          "use" : "work"
        }],
        "gender" : "male",
        "address" : [{
          "use" : "home",
          "line" : ["1003 Healthcare Drive"]
        }]
      }
    },
    {
      "fullUrl" : "http://hl7.org/fhir/Practitioner/16",
      "resource" : {
        "resourceType" : "Practitioner",
        "id" : "16",
        "meta" : {
          "lastUpdated" : "2012-05-29T23:45:32Z"
        },
        "text" : {
          "status" : "generated",
          "div" : "<div xmlns=\"http://www.w3.org/1999/xhtml\">Primary, Patricia. SSN:\n            555555555</div>"
        },
        "identifier" : [{
          "type" : {
            "coding" : [{
              "system" : "http://terminology.hl7.org/CodeSystem/v2-0203",
              "code" : "SS"
            }]
          },
          "system" : "http://hl7.org/fhir/sid/us-ssn",
          "value" : "555555555"
        }],
        "name" : [{
          "use" : "official",
          "family" : "Primary",
          "given" : ["Patricia"]
        }],
        "telecom" : [{
          "system" : "phone",
          "value" : "555-555-1004",
          "use" : "work"
        }],
        "gender" : "female",
        "address" : [{
          "use" : "home",
          "line" : ["1004 Healthcare Drive"]
        }]
      }
    },
    {
      "fullUrl" : "http://hl7.org/fhir/Practitioner/17",
      "resource" : {
        "resourceType" : "Practitioner",
        "id" : "17",
        "meta" : {
          "lastUpdated" : "2012-05-29T23:45:32Z"
        },
        "text" : {
          "status" : "generated",
          "div" : "<div xmlns=\"http://www.w3.org/1999/xhtml\">Admit, Alan. SSN:\n            666666666</div>"
        },
        "identifier" : [{
          "type" : {
            "coding" : [{
              "system" : "http://terminology.hl7.org/CodeSystem/v2-0203",
              "code" : "SS"
            }]
          },
          "system" : "http://hl7.org/fhir/sid/us-ssn",
          "value" : "666666666"
        }],
        "name" : [{
          "use" : "official",
          "family" : "Admit",
          "given" : ["Alan"]
        }],
        "telecom" : [{
          "system" : "phone",
          "value" : "555-555-1005",
          "use" : "work"
        }],
        "gender" : "male",
        "address" : [{
          "use" : "home",
          "line" : ["1005 Healthcare Drive"]
        }]
      }
    },
    {
      "fullUrl" : "http://hl7.org/fhir/Practitioner/18",
      "resource" : {
        "resourceType" : "Practitioner",
        "id" : "18",
        "meta" : {
          "lastUpdated" : "2012-05-29T23:45:32Z"
        },
        "text" : {
          "status" : "generated",
          "div" : "<div xmlns=\"http://www.w3.org/1999/xhtml\">Attend, Aaron. SSN:\n            777777777</div>"
        },
        "identifier" : [{
          "type" : {
            "coding" : [{
              "system" : "http://terminology.hl7.org/CodeSystem/v2-0203",
              "code" : "SS"
            }]
          },
          "system" : "http://hl7.org/fhir/sid/us-ssn",
          "value" : "777777777"
        }],
        "name" : [{
          "use" : "official",
          "family" : "Attend",
          "given" : ["Aaron"]
        }],
        "telecom" : [{
          "system" : "phone",
          "value" : "555-555-1006",
          "use" : "work"
        }],
        "gender" : "male",
        "address" : [{
          "use" : "home",
          "line" : ["1006 Healthcare Drive"]
        }]
      }
    },
    {
      "fullUrl" : "http://hl7.org/fhir/Practitioner/19",
      "resource" : {
        "resourceType" : "Practitioner",
        "id" : "19",
        "meta" : {
          "lastUpdated" : "2012-05-29T23:45:32Z"
        },
        "text" : {
          "status" : "generated",
          "div" : "<div xmlns=\"http://www.w3.org/1999/xhtml\">Sender, Sam. SSN:\n            888888888</div>"
        },
        "identifier" : [{
          "type" : {
            "coding" : [{
              "system" : "http://terminology.hl7.org/CodeSystem/v2-0203",
              "code" : "SS"
            }]
          },
          "system" : "http://hl7.org/fhir/sid/us-ssn",
          "value" : "888888888"
        }],
        "name" : [{
          "use" : "official",
          "family" : "Sender",
          "given" : ["Sam"]
        }],
        "telecom" : [{
          "system" : "phone",
          "value" : "555-555-1007",
          "use" : "work"
        }],
        "gender" : "male",
        "address" : [{
          "use" : "home",
          "line" : ["1007 Healthcare Drive"]
        }]
      }
    },
    {
      "fullUrl" : "http://hl7.org/fhir/Practitioner/20",
      "resource" : {
        "resourceType" : "Practitioner",
        "id" : "20",
        "meta" : {
          "lastUpdated" : "2012-05-29T23:45:32Z"
        },
        "text" : {
          "status" : "generated",
          "div" : "<div xmlns=\"http://www.w3.org/1999/xhtml\">Intern, Irving. SSN:\n            888222222</div>"
        },
        "identifier" : [{
          "type" : {
            "coding" : [{
              "system" : "http://terminology.hl7.org/CodeSystem/v2-0203",
              "code" : "SS"
            }]
          },
          "system" : "http://hl7.org/fhir/sid/us-ssn",
          "value" : "888222222"
        }],
        "name" : [{
          "use" : "official",
          "family" : "Intern",
          "given" : ["Irving"]
        }],
        "telecom" : [{
          "system" : "phone",
          "value" : "555-555-1022",
          "use" : "work"
        }],
        "gender" : "male",
        "address" : [{
          "use" : "home",
          "line" : ["1021 Healthcare Drive"]
        }]
      }
    },
    {
      "fullUrl" : "http://hl7.org/fhir/Practitioner/21",
      "resource" : {
        "resourceType" : "Practitioner",
        "id" : "21",
        "meta" : {
          "lastUpdated" : "2012-05-29T23:45:32Z"
        },
        "text" : {
          "status" : "generated",
          "div" : "<div xmlns=\"http://www.w3.org/1999/xhtml\">Resident, Rachel. SSN:\n            888333333</div>"
        },
        "identifier" : [{
          "type" : {
            "coding" : [{
              "system" : "http://terminology.hl7.org/CodeSystem/v2-0203",
              "code" : "SS"
            }]
          },
          "system" : "http://hl7.org/fhir/sid/us-ssn",
          "value" : "888333333"
        }],
        "name" : [{
          "use" : "official",
          "family" : "Resident",
          "given" : ["Rachel"]
        }],
        "telecom" : [{
          "system" : "phone",
          "value" : "555-555-1023",
          "use" : "work"
        }],
        "gender" : "female",
        "address" : [{
          "use" : "home",
          "line" : ["1022 Healthcare Drive"]
        }]
      }
    },
    {
      "fullUrl" : "http://hl7.org/fhir/Practitioner/22",
      "resource" : {
        "resourceType" : "Practitioner",
        "id" : "22",
        "meta" : {
          "lastUpdated" : "2012-05-29T23:45:32Z"
        },
        "text" : {
          "status" : "generated",
          "div" : "<div xmlns=\"http://www.w3.org/1999/xhtml\">Leader, Linda. SSN:\n            888444444</div>"
        },
        "identifier" : [{
          "type" : {
            "coding" : [{
              "system" : "http://terminology.hl7.org/CodeSystem/v2-0203",
              "code" : "SS"
            }]
          },
          "system" : "http://hl7.org/fhir/sid/us-ssn",
          "value" : "888444444"
        }],
        "name" : [{
          "use" : "official",
          "family" : "Leader",
          "given" : ["Linda"]
        }],
        "telecom" : [{
          "system" : "phone",
          "value" : "555-555-1024",
          "use" : "work"
        }],
        "gender" : "female",
        "address" : [{
          "use" : "home",
          "line" : ["1023 Healthcare Drive"]
        }]
      }
    },
    {
      "fullUrl" : "http://hl7.org/fhir/Practitioner/23",
      "resource" : {
        "resourceType" : "Practitioner",
        "id" : "23",
        "meta" : {
          "lastUpdated" : "2012-05-29T23:45:32Z"
        },
        "text" : {
          "status" : "generated",
          "div" : "<div xmlns=\"http://www.w3.org/1999/xhtml\">Verify, Virgil. SSN:\n            999999999</div>"
        },
        "identifier" : [{
          "type" : {
            "coding" : [{
              "system" : "http://terminology.hl7.org/CodeSystem/v2-0203",
              "code" : "SS"
            }]
          },
          "system" : "http://hl7.org/fhir/sid/us-ssn",
          "value" : "999999999"
        }],
        "name" : [{
          "use" : "official",
          "family" : "Verify",
          "given" : ["Virgil"]
        }],
        "telecom" : [{
          "system" : "phone",
          "value" : "555-555-1008",
          "use" : "work"
        }],
        "gender" : "male",
        "address" : [{
          "use" : "home",
          "line" : ["1008 Healthcare Drive"]
        }]
      }
    },
    {
      "fullUrl" : "http://hl7.org/fhir/Practitioner/24",
      "resource" : {
        "resourceType" : "Practitioner",
        "id" : "24",
        "meta" : {
          "lastUpdated" : "2012-05-29T23:45:32Z"
        },
        "text" : {
          "status" : "generated",
          "div" : "<div xmlns=\"http://www.w3.org/1999/xhtml\">Specialize, Sara. SSN:\n            222333333</div>"
        },
        "identifier" : [{
          "type" : {
            "coding" : [{
              "system" : "http://terminology.hl7.org/CodeSystem/v2-0203",
              "code" : "SS"
            }]
          },
          "system" : "http://hl7.org/fhir/sid/us-ssn",
          "value" : "222333333"
        }],
        "name" : [{
          "use" : "official",
          "family" : "Specialize",
          "given" : ["Sara"]
        }],
        "telecom" : [{
          "system" : "phone",
          "value" : "555-555-1009",
          "use" : "work"
        }],
        "gender" : "female",
        "address" : [{
          "use" : "home",
          "line" : ["1009 Healthcare Drive"]
        }]
      }
    },
    {
      "fullUrl" : "http://hl7.org/fhir/Practitioner/25",
      "resource" : {
        "resourceType" : "Practitioner",
        "id" : "25",
        "meta" : {
          "lastUpdated" : "2012-05-29T23:45:32Z"
        },
        "text" : {
          "status" : "generated",
          "div" : "<div xmlns=\"http://www.w3.org/1999/xhtml\">Reaction, Ramsey. SSN:\n            222223333</div>"
        },
        "identifier" : [{
          "type" : {
            "coding" : [{
              "system" : "http://terminology.hl7.org/CodeSystem/v2-0203",
              "code" : "SS"
            }]
          },
          "system" : "http://hl7.org/fhir/sid/us-ssn",
          "value" : "222223333"
        }],
        "name" : [{
          "use" : "official",
          "family" : "Reaction",
          "given" : ["Ramsey"]
        }],
        "telecom" : [{
          "system" : "phone",
          "value" : "555-555-1025",
          "use" : "work"
        }],
        "gender" : "male",
        "address" : [{
          "use" : "home",
          "line" : ["1024 Healthcare Drive"]
        }]
      }
    },
    {
      "fullUrl" : "http://hl7.org/fhir/Practitioner/26",
      "resource" : {
        "resourceType" : "Practitioner",
        "id" : "26",
        "meta" : {
          "lastUpdated" : "2012-05-29T23:45:32Z"
        },
        "text" : {
          "status" : "generated",
          "div" : "<div xmlns=\"http://www.w3.org/1999/xhtml\">Sleeper, Sally. SSN:\n            222666666</div>"
        },
        "identifier" : [{
          "type" : {
            "coding" : [{
              "system" : "http://terminology.hl7.org/CodeSystem/v2-0203",
              "code" : "SS"
            }]
          },
          "system" : "http://hl7.org/fhir/sid/us-ssn",
          "value" : "222666666"
        }],
        "name" : [{
          "use" : "official",
          "family" : "Sleeper",
          "given" : ["Sally"]
        }],
        "telecom" : [{
          "system" : "phone",
          "value" : "555-555-1012",
          "use" : "work"
        }],
        "gender" : "female",
        "address" : [{
          "use" : "home",
          "line" : ["1012 Healthcare Drive"]
        }]
      }
    },
    {
      "fullUrl" : "http://hl7.org/fhir/Practitioner/27",
      "resource" : {
        "resourceType" : "Practitioner",
        "id" : "27",
        "meta" : {
          "lastUpdated" : "2012-05-29T23:45:32Z"
        },
        "text" : {
          "status" : "generated",
          "div" : "<div xmlns=\"http://www.w3.org/1999/xhtml\">Pump, Patrick. SSN:\n            222334444</div>"
        },
        "identifier" : [{
          "type" : {
            "coding" : [{
              "system" : "http://terminology.hl7.org/CodeSystem/v2-0203",
              "code" : "SS"
            }]
          },
          "system" : "http://hl7.org/fhir/sid/us-ssn",
          "value" : "222334444"
        }],
        "name" : [{
          "use" : "official",
          "family" : "Pump",
          "given" : ["Patrick"]
        }],
        "telecom" : [{
          "system" : "phone",
          "value" : "555-555-1027",
          "use" : "work"
        }],
        "gender" : "male",
        "address" : [{
          "use" : "home",
          "line" : ["1025 Healthcare Drive"]
        }]
      }
    },
    {
      "fullUrl" : "http://hl7.org/fhir/Practitioner/28",
      "resource" : {
        "resourceType" : "Practitioner",
        "id" : "28",
        "meta" : {
          "lastUpdated" : "2012-05-29T23:45:32Z"
        },
        "text" : {
          "status" : "generated",
          "div" : "<div xmlns=\"http://www.w3.org/1999/xhtml\">Valve, Vera. SSN:\n            222335555</div>"
        },
        "identifier" : [{
          "type" : {
            "coding" : [{
              "system" : "http://terminology.hl7.org/CodeSystem/v2-0203",
              "code" : "SS"
            }]
          },
          "system" : "http://hl7.org/fhir/sid/us-ssn",
          "value" : "222335555"
        }],
        "name" : [{
          "use" : "official",
          "family" : "Valve",
          "given" : ["Vera"]
        }],
        "telecom" : [{
          "system" : "phone",
          "value" : "555-555-1028",
          "use" : "work"
        }],
        "gender" : "female",
        "address" : [{
          "use" : "home",
          "line" : ["1026 Healthcare Drive"]
        }]
      }
    },
    {
      "fullUrl" : "http://hl7.org/fhir/Practitioner/29",
      "resource" : {
        "resourceType" : "Practitioner",
        "id" : "29",
        "meta" : {
          "lastUpdated" : "2012-05-29T23:45:32Z"
        },
        "text" : {
          "status" : "generated",
          "div" : "<div xmlns=\"http://www.w3.org/1999/xhtml\">Scratch, Sophie. SSN:\n            222336666</div>"
        },
        "identifier" : [{
          "type" : {
            "coding" : [{
              "system" : "http://terminology.hl7.org/CodeSystem/v2-0203",
              "code" : "SS"
            }]
          },
          "system" : "http://hl7.org/fhir/sid/us-ssn",
          "value" : "222336666"
        }],
        "name" : [{
          "use" : "official",
          "family" : "Scratch",
          "given" : ["Sophie"]
        }],
        "telecom" : [{
          "system" : "phone",
          "value" : "555-555-1029",
          "use" : "work"
        }],
        "gender" : "female",
        "address" : [{
          "use" : "home",
          "line" : ["1027 Healthcare Drive"]
        }]
      }
    },
    {
      "fullUrl" : "http://hl7.org/fhir/Practitioner/30",
      "resource" : {
        "resourceType" : "Practitioner",
        "id" : "30",
        "meta" : {
          "lastUpdated" : "2012-05-29T23:45:32Z"
        },
        "text" : {
          "status" : "generated",
          "div" : "<div xmlns=\"http://www.w3.org/1999/xhtml\">Emergency, Eric. SSN:\n            222337777</div>"
        },
        "identifier" : [{
          "type" : {
            "coding" : [{
              "system" : "http://terminology.hl7.org/CodeSystem/v2-0203",
              "code" : "SS"
            }]
          },
          "system" : "http://hl7.org/fhir/sid/us-ssn",
          "value" : "222337777"
        }],
        "name" : [{
          "use" : "official",
          "family" : "Emergency",
          "given" : ["Eric"]
        }],
        "telecom" : [{
          "system" : "phone",
          "value" : "555-555-1030",
          "use" : "work"
        }],
        "gender" : "male",
        "address" : [{
          "use" : "home",
          "line" : ["1028 Healthcare Drive"]
        }]
      }
    }
  ],
  "patient": [
    {
      "fullUrl" : "http://hl7.org/fhir/Patient/1",
      "resource" : {
        "resourceType" : "Patient",
        "id" : "1",
        "meta" : {
          "lastUpdated" : "2012-05-29T23:45:32Z"
        },
        "text" : {
          "status" : "generated",
          "div" : "<div xmlns=\"http://www.w3.org/1999/xhtml\">Everywoman, Eve. SSN:\n            444222222</div>"
        },
        "identifier" : [{
          "type" : {
            "coding" : [{
              "system" : "http://terminology.hl7.org/CodeSystem/v2-0203",
              "code" : "SS"
            }]
          },
          "system" : "http://hl7.org/fhir/sid/us-ssn",
          "value" : "444222222"
        }],
        "active" : true,
        "name" : [{
          "use" : "official",
          "family" : "Everywoman",
          "given" : ["Eve"]
        }],
        "telecom" : [{
          "system" : "phone",
          "value" : "555-555-2003",
          "use" : "work"
        }],
        "gender" : "female",
        "birthDate" : "1973-05-31",
        "address" : [{
          "use" : "home",
          "line" : ["2222 Home Street"]
        }],
        "managingOrganization" : {
          "reference" : "Organization/hl7"
        }
      }
    },
    {
      "fullUrl" : "http://hl7.org/fhir/Patient/2",
      "resource" : {
        "resourceType" : "Patient",
        "id" : "2",
        "meta" : {
          "lastUpdated" : "2012-05-29T23:45:32Z"
        },
        "text" : {
          "status" : "generated",
          "div" : "<div xmlns=\"http://www.w3.org/1999/xhtml\">Everyman, Adam. SSN:\n            444333333</div>"
        },
        "identifier" : [{
          "type" : {
            "coding" : [{
              "system" : "http://terminology.hl7.org/CodeSystem/v2-0203",
              "code" : "SS"
            }]
          },
          "system" : "http://hl7.org/fhir/sid/us-ssn",
          "value" : "444333333"
        }],
        "active" : true,
        "name" : [{
          "use" : "official",
          "family" : "Everyman",
          "given" : ["Adam"]
        }],
        "telecom" : [{
          "system" : "phone",
          "value" : "555-555-2004",
          "use" : "work"
        }],
        "gender" : "male",
        "address" : [{
          "use" : "home",
          "line" : ["2222 Home Street"]
        }],
        "managingOrganization" : {
          "reference" : "Organization/hl7"
        }
      }
    },
    {
      "fullUrl" : "http://hl7.org/fhir/Patient/3",
      "resource" : {
        "resourceType" : "Patient",
        "id" : "3",
        "meta" : {
          "lastUpdated" : "2012-05-29T23:45:32Z"
        },
        "text" : {
          "status" : "generated",
          "div" : "<div xmlns=\"http://www.w3.org/1999/xhtml\">Kidd, Kari. SSN:\n            444555555</div>"
        },
        "identifier" : [{
          "type" : {
            "coding" : [{
              "system" : "http://terminology.hl7.org/CodeSystem/v2-0203",
              "code" : "SS"
            }]
          },
          "system" : "http://hl7.org/fhir/sid/us-ssn",
          "value" : "444555555"
        }],
        "active" : true,
        "name" : [{
          "use" : "official",
          "family" : "Kidd",
          "given" : ["Kari"]
        }],
        "telecom" : [{
          "system" : "phone",
          "value" : "555-555-2005",
          "use" : "work"
        }],
        "gender" : "female",
        "address" : [{
          "use" : "home",
          "line" : ["2222 Home Street"]
        }],
        "managingOrganization" : {
          "reference" : "Organization/hl7"
        }
      }
    },
    {
      "fullUrl" : "http://hl7.org/fhir/Patient/4",
      "resource" : {
        "resourceType" : "Patient",
        "id" : "4",
        "meta" : {
          "lastUpdated" : "2012-05-29T23:45:32Z"
        },
        "text" : {
          "status" : "generated",
          "div" : "<div xmlns=\"http://www.w3.org/1999/xhtml\">Nuclear, Nancy. SSN:\n            444114567</div>"
        },
        "identifier" : [{
          "type" : {
            "coding" : [{
              "system" : "http://terminology.hl7.org/CodeSystem/v2-0203",
              "code" : "SS"
            }]
          },
          "system" : "http://hl7.org/fhir/sid/us-ssn",
          "value" : "444114567"
        }],
        "active" : true,
        "name" : [{
          "use" : "official",
          "family" : "Nuclear",
          "given" : ["Nancy"]
        }],
        "telecom" : [{
          "system" : "phone",
          "value" : "555-555-5001",
          "use" : "work"
        }],
        "gender" : "female",
        "address" : [{
          "use" : "home",
          "line" : ["6666 Home Street"]
        }],
        "managingOrganization" : {
          "reference" : "Organization/hl7"
        }
      }
    },
    {
      "fullUrl" : "http://hl7.org/fhir/Patient/5",
      "resource" : {
        "resourceType" : "Patient",
        "id" : "5",
        "meta" : {
          "lastUpdated" : "2012-05-29T23:45:32Z"
        },
        "text" : {
          "status" : "generated",
          "div" : "<div xmlns=\"http://www.w3.org/1999/xhtml\">Nuclear, Neville. SSN:\n            444111234</div>"
        },
        "identifier" : [{
          "type" : {
            "coding" : [{
              "system" : "http://terminology.hl7.org/CodeSystem/v2-0203",
              "code" : "SS"
            }]
          },
          "system" : "http://hl7.org/fhir/sid/us-ssn",
          "value" : "444111234"
        }],
        "active" : true,
        "name" : [{
          "use" : "official",
          "family" : "Nuclear",
          "given" : ["Neville"]
        }],
        "telecom" : [{
          "system" : "phone",
          "value" : "555-555-5001",
          "use" : "work"
        }],
        "gender" : "male",
        "address" : [{
          "use" : "home",
          "line" : ["6666 Home Street"]
        }],
        "managingOrganization" : {
          "reference" : "Organization/hl7"
        }
      }
    },
    {
      "fullUrl" : "http://hl7.org/fhir/Patient/6",
      "resource" : {
        "resourceType" : "Patient",
        "id" : "6",
        "meta" : {
          "lastUpdated" : "2012-05-29T23:45:32Z"
        },
        "text" : {
          "status" : "generated",
          "div" : "<div xmlns=\"http://www.w3.org/1999/xhtml\">Nuclear, Ned. SSN:\n            444113456</div>"
        },
        "identifier" : [{
          "type" : {
            "coding" : [{
              "system" : "http://terminology.hl7.org/CodeSystem/v2-0203",
              "code" : "SS"
            }]
          },
          "system" : "http://hl7.org/fhir/sid/us-ssn",
          "value" : "444113456"
        }],
        "active" : true,
        "name" : [{
          "use" : "official",
          "family" : "Nuclear",
          "given" : ["Ned"]
        }],
        "telecom" : [{
          "system" : "phone",
          "value" : "555-555-5001",
          "use" : "work"
        }],
        "gender" : "male",
        "address" : [{
          "use" : "home",
          "line" : ["6666 Home Street"]
        }],
        "managingOrganization" : {
          "reference" : "Organization/hl7"
        }
      }
    },
    {
      "fullUrl" : "http://hl7.org/fhir/Patient/7",
      "resource" : {
        "resourceType" : "Patient",
        "id" : "7",
        "meta" : {
          "lastUpdated" : "2012-05-29T23:45:32Z"
        },
        "text" : {
          "status" : "generated",
          "div" : "<div xmlns=\"http://www.w3.org/1999/xhtml\">Nuclear, Nelda. SSN:\n            444112345</div>"
        },
        "identifier" : [{
          "type" : {
            "coding" : [{
              "system" : "http://terminology.hl7.org/CodeSystem/v2-0203",
              "code" : "SS"
            }]
          },
          "system" : "http://hl7.org/fhir/sid/us-ssn",
          "value" : "444112345"
        }],
        "active" : true,
        "name" : [{
          "use" : "official",
          "family" : "Nuclear",
          "given" : ["Nelda"]
        }],
        "telecom" : [{
          "system" : "phone",
          "value" : "555-555-5001",
          "use" : "work"
        }],
        "gender" : "female",
        "address" : [{
          "use" : "home",
          "line" : ["6666 Home Street"]
        }],
        "managingOrganization" : {
          "reference" : "Organization/hl7"
        }
      }
    },
    {
      "fullUrl" : "http://hl7.org/fhir/Patient/8",
      "resource" : {
        "resourceType" : "Patient",
        "id" : "8",
        "meta" : {
          "lastUpdated" : "2012-05-29T23:45:32Z"
        },
        "text" : {
          "status" : "generated",
          "div" : "<div xmlns=\"http://www.w3.org/1999/xhtml\">Mum, Martha. SSN:\n            444666666</div>"
        },
        "identifier" : [{
          "type" : {
            "coding" : [{
              "system" : "http://terminology.hl7.org/CodeSystem/v2-0203",
              "code" : "SS"
            }]
          },
          "system" : "http://hl7.org/fhir/sid/us-ssn",
          "value" : "444666666"
        }],
        "active" : true,
        "name" : [{
          "use" : "official",
          "family" : "Mum",
          "given" : ["Martha"]
        }],
        "telecom" : [{
          "system" : "phone",
          "value" : "555-555-2006",
          "use" : "work"
        }],
        "gender" : "female",
        "address" : [{
          "use" : "home",
          "line" : ["4444 Home Street"]
        }],
        "managingOrganization" : {
          "reference" : "Organization/hl7"
        }
      }
    },
    {
      "fullUrl" : "http://hl7.org/fhir/Patient/9",
      "resource" : {
        "resourceType" : "Patient",
        "id" : "9",
        "meta" : {
          "lastUpdated" : "2012-05-29T23:45:32Z"
        },
        "text" : {
          "status" : "generated",
          "div" : "<div xmlns=\"http://www.w3.org/1999/xhtml\">Sons, Stuart. SSN:\n            444777777</div>"
        },
        "identifier" : [{
          "type" : {
            "coding" : [{
              "system" : "http://terminology.hl7.org/CodeSystem/v2-0203",
              "code" : "SS"
            }]
          },
          "system" : "http://hl7.org/fhir/sid/us-ssn",
          "value" : "444777777"
        }],
        "active" : true,
        "name" : [{
          "use" : "official",
          "family" : "Sons",
          "given" : ["Stuart"]
        }],
        "telecom" : [{
          "system" : "phone",
          "value" : "555-555-2007",
          "use" : "work"
        }],
        "gender" : "other",
        "_gender" : {
          "extension" : [{
            "url" : "http://example.org/Profile/administrative-status",
            "valueCodeableConcept" : {
              "coding" : [{
                "system" : "http://example.org/fhir/v2/administrative-status",
                "code" : "FTM",
                "display" : "female-to-male"
              }]
            }
          }]
        },
        "deceasedDateTime" : "2002-08-24",
        "address" : [{
          "use" : "home",
          "line" : ["4444 Home Street"]
        }],
        "managingOrganization" : {
          "reference" : "Organization/hl7"
        }
      }
    },
    {
      "fullUrl" : "http://hl7.org/fhir/Patient/10",
      "resource" : {
        "resourceType" : "Patient",
        "id" : "10",
        "meta" : {
          "lastUpdated" : "2012-05-29T23:45:32Z"
        },
        "text" : {
          "status" : "generated",
          "div" : "<div xmlns=\"http://www.w3.org/1999/xhtml\">Betterhalf, Boris. SSN:\n            444888888</div>"
        },
        "identifier" : [{
          "type" : {
            "coding" : [{
              "system" : "http://terminology.hl7.org/CodeSystem/v2-0203",
              "code" : "SS"
            }]
          },
          "system" : "http://hl7.org/fhir/sid/us-ssn",
          "value" : "444888888"
        }],
        "active" : true,
        "name" : [{
          "use" : "official",
          "family" : "Betterhalf",
          "given" : ["Boris"]
        }],
        "telecom" : [{
          "system" : "phone",
          "value" : "555-555-2008",
          "use" : "work"
        }],
        "gender" : "male",
        "address" : [{
          "use" : "home",
          "line" : ["2222 Home Street"]
        }],
        "managingOrganization" : {
          "reference" : "Organization/hl7"
        }
      }
    },
    {
      "fullUrl" : "http://hl7.org/fhir/Patient/11",
      "resource" : {
        "resourceType" : "Patient",
        "id" : "11",
        "meta" : {
          "lastUpdated" : "2012-05-29T23:45:32Z"
        },
        "text" : {
          "status" : "generated",
          "div" : "<div xmlns=\"http://www.w3.org/1999/xhtml\">Relative, Ralph. SSN:\n            444999999</div>"
        },
        "identifier" : [{
          "type" : {
            "coding" : [{
              "system" : "http://terminology.hl7.org/CodeSystem/v2-0203",
              "code" : "SS"
            }]
          },
          "system" : "http://hl7.org/fhir/sid/us-ssn",
          "value" : "444999999"
        }],
        "active" : true,
        "name" : [{
          "use" : "official",
          "family" : "Relative",
          "given" : ["Ralph"]
        }],
        "telecom" : [{
          "system" : "phone",
          "value" : "555-555-2009",
          "use" : "work"
        }],
        "gender" : "male",
        "address" : [{
          "use" : "home",
          "line" : ["4444 Home Street"]
        }],
        "managingOrganization" : {
          "reference" : "Organization/hl7"
        }
      }
    },
    {
      "fullUrl" : "http://hl7.org/fhir/Patient/12",
      "resource" : {
        "resourceType" : "Patient",
        "id" : "12",
        "meta" : {
          "lastUpdated" : "2012-05-29T23:45:32Z"
        },
        "text" : {
          "status" : "generated",
          "div" : "<div xmlns=\"http://www.w3.org/1999/xhtml\">Contact, Carrie. SSN:\n            555222222</div>"
        },
        "identifier" : [{
          "type" : {
            "coding" : [{
              "system" : "http://terminology.hl7.org/CodeSystem/v2-0203",
              "code" : "SS"
            }]
          },
          "system" : "http://hl7.org/fhir/sid/us-ssn",
          "value" : "555222222"
        }],
        "active" : true,
        "name" : [{
          "use" : "official",
          "family" : "Contact",
          "given" : ["Carrie"]
        }],
        "telecom" : [{
          "system" : "phone",
          "value" : "555-555-2010",
          "use" : "work"
        }],
        "gender" : "female",
        "address" : [{
          "use" : "home",
          "line" : ["5555 Home Street"]
        }],
        "managingOrganization" : {
          "reference" : "Organization/hl7"
        }
      }
    }
  ],
  "practitionerRole": [
    {
      "fullUrl" : "http://hl7.org/fhir/PractitionerRole/f003-0",
      "resource" : {
        "resourceType" : "PractitionerRole",
        "id" : "f003-0",
        "text" : {
          "status" : "generated",
          "div" : "<div xmlns=\"http://www.w3.org/1999/xhtml\">\n            <span style=\"color: gray;\">practitioner:</span> Marc Versteegh<br/><span style=\"color: gray;\">organization:</span> BMC<br/><span style=\"color: gray;\">role:</span> Care role\n          </div>"
        },
        "practitioner" : {
          "reference" : "Practitioner/f003",
          "display" : "Marc Versteegh"
        },
        "organization" : {
          "reference" : "Organization/f001",
          "display" : "BMC"
        },
        "code" : [{
          "coding" : [{
            "system" : "http://snomed.info/sct",
            "code" : "17561000",
            "display" : "Cardiologist"
          }]
        }],
        "specialty" : [{
          "coding" : [{
            "system" : "http://snomed.info/sct",
            "code" : "394603008",
            "display" : "Cardiothoracic surgery"
          }]
        }]
      }
    },
    {
      "fullUrl" : "http://hl7.org/fhir/PractitionerRole/example-0",
      "resource" : {
        "resourceType" : "PractitionerRole",
        "id" : "example-0",
        "text" : {
          "status" : "generated",
          "div" : "<div xmlns=\"http://www.w3.org/1999/xhtml\">\n            <span style=\"color: gray;\">practitioner:</span> Adam Careful<br/><span style=\"color: gray;\">location:</span> South Wing, second floor<br/><span style=\"color: gray;\">role:</span> RP<br/><span style=\"color: gray;\">Email:</span> dr.adam.careful@example.org<br/><span style=\"color: gray;\">identifier:</span> 52\n          </div>"
        },
        "identifier" : [{
          "system" : "http://example.org/role-identifier",
          "value" : "52"
        }],
        "period" : {
          "start" : "2012-01-01",
          "end" : "2012-03-31"
        },
        "practitioner" : {
          "reference" : "Practitioner/example",
          "display" : "Adam Careful"
        },
        "organization" : {
          "reference" : "Organization/f001"
        },
        "code" : [{
          "coding" : [{
            "system" : "http://snomed.info/sct",
            "code" : "59058001",
            "display" : "General physician"
          }]
        }],
        "location" : [{
          "reference" : "Location/1",
          "display" : "South Wing, second floor"
        }],
        "healthcareService" : [{
          "reference" : "HealthcareService/example"
        }],
        "contact" : [{
          "telecom" : [{
            "system" : "email",
            "value" : "dr.adam.careful@example.org"
          }]
        }],
        "endpoint" : [{
          "reference" : "Endpoint/example"
        }]
      }
    },
    {
      "fullUrl" : "http://hl7.org/fhir/PractitionerRole/example-1",
      "resource" : {
        "resourceType" : "PractitionerRole",
        "id" : "example-1",
        "text" : {
          "status" : "generated",
          "div" : "<div xmlns=\"http://www.w3.org/1999/xhtml\">\n            <span style=\"color: gray;\">practitioner:</span> Adam Careful<br/><span style=\"color: gray;\">organization:</span> Good Health Clinic\n          </div>"
        },
        "period" : {
          "start" : "2012-01-01"
        },
        "practitioner" : {
          "reference" : "Practitioner/example",
          "display" : "Adam Careful"
        },
        "organization" : {
          "reference" : "Organization/2",
          "display" : "Good Health Clinic"
        },
        "code" : [{
          "coding" : [{
            "system" : "http://snomed.info/sct",
            "code" : "59058001",
            "display" : "General physician"
          }]
        }]
      }
    },
    {
      "fullUrl" : "http://hl7.org/fhir/PractitionerRole/example-2",
      "resource" : {
        "resourceType" : "PractitionerRole",
        "id" : "example-2",
        "text" : {
          "status" : "generated",
          "div" : "<div xmlns=\"http://www.w3.org/1999/xhtml\">\n            <span style=\"color: gray;\">practitioner:</span> Adam Careful<br/>\n            <span style=\"color: gray;\">organization:</span> Good Health Clinic<br/>\n            <span style=\"color: gray;\">role:</span> On call physcologist\n          </div>"
        },
        "period" : {
          "start" : "2016-07-01",
          "end" : "2017-06-30"
        },
        "practitioner" : {
          "reference" : "Practitioner/example",
          "display" : "Adam Careful"
        },
        "organization" : {
          "reference" : "Organization/2",
          "display" : "Good Health Clinic"
        },
        "code" : [{
          "coding" : [{
            "system" : "http://snomed.info/sct",
            "code" : "59944000",
            "display" : "Psychologist"
          }],
          "text" : "On call physcologist"
        }],
        "contact" : [{
          "telecom" : [{
            "system" : "phone",
            "value" : "555 123456",
            "use" : "mobile"
          }]
        }],
        "availability" : [{
          "availableTime" : [{
            "daysOfWeek" : ["sat",
              "sun"],
            "allDay" : true
          }],
          "notAvailableTime" : [{
            "description" : "Public Holidays"
          }]
        }]
      }
    },
    {
      "fullUrl" : "http://hl7.org/fhir/PractitionerRole/f007-0",
      "resource" : {
        "resourceType" : "PractitionerRole",
        "id" : "f007-0",
        "text" : {
          "status" : "generated",
          "div" : "<div xmlns=\"http://www.w3.org/1999/xhtml\">\n            <span style=\"color: gray;\">practitioner:</span> Simone Heps<br/><span style=\"color: gray;\">organization:</span> BMC<br/><span style=\"color: gray;\">role:</span> Care role\n          </div>"
        },
        "practitioner" : {
          "reference" : "Practitioner/f007",
          "display" : "Simone Heps"
        },
        "organization" : {
          "reference" : "Organization/f001",
          "display" : "BMC"
        },
        "code" : [{
          "coding" : [{
            "system" : "http://snomed.info/sct",
            "code" : "59058001",
            "display" : "General physician"
          }]
        }],
        "specialty" : [{
          "coding" : [{
            "system" : "http://snomed.info/sct",
            "code" : "394814009",
            "display" : "General practice"
          }]
        }]
      }
    },
    {
      "fullUrl" : "http://hl7.org/fhir/PractitionerRole/f004-0",
      "resource" : {
        "resourceType" : "PractitionerRole",
        "id" : "f004-0",
        "text" : {
          "status" : "generated",
          "div" : "<div xmlns=\"http://www.w3.org/1999/xhtml\">\n            <span style=\"color: gray;\">practitioner:</span> Ronald Briet<br/><span style=\"color: gray;\">organization:</span> BMC<br/><span style=\"color: gray;\">role:</span> Care role\n          </div>"
        },
        "practitioner" : {
          "reference" : "Practitioner/f004",
          "display" : "Ronald Briet"
        },
        "organization" : {
          "reference" : "Organization/f001",
          "display" : "BMC"
        },
        "code" : [{
          "coding" : [{
            "system" : "http://snomed.info/sct",
            "code" : "59058001",
            "display" : "General physician"
          }]
        }],
        "specialty" : [{
          "coding" : [{
            "system" : "http://snomed.info/sct",
            "code" : "394604002",
            "display" : "Surgery-Ear, nose and throat surgery"
          }]
        }]
      }
    },
    {
      "fullUrl" : "http://hl7.org/fhir/PractitionerRole/xcda1-0",
      "resource" : {
        "resourceType" : "PractitionerRole",
        "id" : "xcda1-0",
        "text" : {
          "status" : "generated",
          "div" : "<div xmlns=\"http://www.w3.org/1999/xhtml\">\n            <span style=\"color: gray;\">practitioner:</span> Sherry Dopplemeyer<br/><span style=\"color: gray;\">organization:</span> Cleveland Clinic<br/><span style=\"color: gray;\">role:</span> Primary Surgon\n          </div>"
        },
        "practitioner" : {
          "reference" : "Practitioner/xcda1",
          "display" : "Sherry Dopplemeyer"
        },
        "organization" : {
          "display" : "Cleveland Clinic"
        },
        "code" : [{
          "text" : "Primary Surgeon"
        }],
        "specialty" : [{
          "coding" : [{
            "system" : "http://snomed.info/sct",
            "code" : "394604002",
            "display" : "Surgery-Ear, nose and throat surgery"
          }]
        }]
      }
    },
    {
      "fullUrl" : "http://hl7.org/fhir/PractitionerRole/f202-0",
      "resource" : {
        "resourceType" : "PractitionerRole",
        "id" : "f202-0",
        "text" : {
          "status" : "generated",
          "div" : "<div xmlns=\"http://www.w3.org/1999/xhtml\">\n            <span style=\"color: gray;\">practitioner:</span> Luigi Maas<br/><span style=\"color: gray;\">organization:</span> AUMC<br/><span style=\"color: gray;\">role:</span> Electronic laboratory reporting\n          </div>"
        },
        "practitioner" : {
          "reference" : "Practitioner/f202",
          "display" : "Luigi Maas"
        },
        "organization" : {
          "reference" : "Organization/f201",
          "display" : "AUMC"
        },
        "code" : [{
          "coding" : [{
            "system" : "http://snomed.info/sct",
            "code" : "33526004",
            "display" : "Electronic laboratory reporting"
          }]
        }],
        "specialty" : [{
          "coding" : [{
            "system" : "http://snomed.info/sct",
            "code" : "159285000",
            "display" : "Medical laboratory technician"
          }]
        }]
      }
    },
    {
      "fullUrl" : "http://hl7.org/fhir/PractitionerRole/f201-0",
      "resource" : {
        "resourceType" : "PractitionerRole",
        "id" : "f201-0",
        "text" : {
          "status" : "generated",
          "div" : "<div xmlns=\"http://www.w3.org/1999/xhtml\">\n            <span style=\"color: gray;\">practitioner:</span> Dokter Bronsig<br/><span style=\"color: gray;\">organization:</span> AUMC<br/><span style=\"color: gray;\">role:</span> Implementation of planned interventions\n          </div>"
        },
        "practitioner" : {
          "reference" : "Practitioner/f201",
          "display" : "Dokter Bronsig"
        },
        "organization" : {
          "reference" : "Organization/f201",
          "display" : "AUMC"
        },
        "code" : [{
          "coding" : [{
            "system" : "http://snomed.info/sct",
            "code" : "225304007",
            "display" : "Implementation of planned interventions"
          }]
        }],
        "specialty" : [{
          "coding" : [{
            "system" : "http://snomed.info/sct",
            "code" : "310512001",
            "display" : "Medical oncologist"
          }]
        }]
      }
    },
    {
      "fullUrl" : "http://hl7.org/fhir/PractitionerRole/f203-0",
      "resource" : {
        "resourceType" : "PractitionerRole",
        "id" : "f203-0",
        "text" : {
          "status" : "generated",
          "div" : "<div xmlns=\"http://www.w3.org/1999/xhtml\">\n            <span style=\"color: gray;\">practitioner:</span> Juri van Gelder<br/><span style=\"color: gray;\">organization:</span> AUMC<br/><span style=\"color: gray;\">role:</span> Physical therapist\n          </div>"
        },
        "practitioner" : {
          "reference" : "Practitioner/f203",
          "display" : "Juri van Gelder"
        },
        "organization" : {
          "reference" : "Organization/f201",
          "display" : "AUMC"
        },
        "code" : [{
          "coding" : [{
            "system" : "http://snomed.info/sct",
            "code" : "36682004",
            "display" : "Physical therapist"
          }]
        }],
        "specialty" : [{
          "coding" : [{
            "system" : "http://snomed.info/sct",
            "code" : "410158009",
            "display" : "Assess physical therapist service"
          }]
        }]
      }
    },
    {
      "fullUrl" : "http://hl7.org/fhir/PractitionerRole/f005-0",
      "resource" : {
        "resourceType" : "PractitionerRole",
        "id" : "f005-0",
        "text" : {
          "status" : "generated",
          "div" : "<div xmlns=\"http://www.w3.org/1999/xhtml\">\n            <span style=\"color: gray;\">practitioner:</span> Langeveld Anne<br/><span style=\"color: gray;\">organization:</span> BMC<br/><span style=\"color: gray;\">role:</span> Care role\n          </div>"
        },
        "practitioner" : {
          "reference" : "Practitioner/f005",
          "display" : "Langeveld Anne"
        },
        "organization" : {
          "reference" : "Organization/f001",
          "display" : "BMC"
        },
        "code" : [{
          "coding" : [{
            "system" : "http://snomed.info/sct",
            "code" : "59058001",
            "display" : "General physician"
          }]
        }],
        "specialty" : [{
          "coding" : [{
            "system" : "http://snomed.info/sct",
            "code" : "394604002",
            "display" : "Surgery-Ear, nose and throat surgery"
          }]
        }]
      }
    },
    {
      "fullUrl" : "http://hl7.org/fhir/PractitionerRole/f006-0",
      "resource" : {
        "resourceType" : "PractitionerRole",
        "id" : "f006-0",
        "text" : {
          "status" : "generated",
          "div" : "<div xmlns=\"http://www.w3.org/1999/xhtml\">\n            <span style=\"color: gray;\">practitioner:</span> Rob van den Berk<br/><span style=\"color: gray;\">organization:</span> BMC<br/><span style=\"color: gray;\">role:</span> Care role\n          </div>"
        },
        "practitioner" : {
          "reference" : "Practitioner/f006",
          "display" : "Rob van den Berk"
        },
        "organization" : {
          "reference" : "Organization/f001",
          "display" : "BMC"
        },
        "code" : [{
          "coding" : [{
            "system" : "http://snomed.info/sct",
            "code" : "159010009",
            "display" : "Hospital pharmacist"
          }]
        }],
        "specialty" : [{
          "coding" : [{
            "system" : "http://snomed.info/sct",
            "code" : "46255001",
            "display" : "Pharmacist"
          }]
        }]
      }
    },
    {
      "fullUrl" : "http://hl7.org/fhir/PractitionerRole/f001-0",
      "resource" : {
        "resourceType" : "PractitionerRole",
        "id" : "f001-0",
        "text" : {
          "status" : "generated",
          "div" : "<div xmlns=\"http://www.w3.org/1999/xhtml\">\n            <span style=\"color: gray;\">practitioner:</span> Eric van den broek<br/><span style=\"color: gray;\">organization:</span> BMC<br/><span style=\"color: gray;\">role:</span> Care role\n          </div>"
        },
        "practitioner" : {
          "reference" : "Practitioner/f001",
          "display" : "Eric van den broek"
        },
        "organization" : {
          "reference" : "Organization/f001",
          "display" : "BMC"
        },
        "code" : [{
          "coding" : [{
            "system" : "http://snomed.info/sct",
            "code" : "59058001",
            "display" : "General physician"
          }]
        }],
        "specialty" : [{
          "coding" : [{
            "system" : "http://snomed.info/sct",
            "code" : "394604002",
            "display" : "Surgery-Ear, nose and throat surgery"
          }]
        }]
      }
    },
    {
      "fullUrl" : "http://hl7.org/fhir/PractitionerRole/f002-0",
      "resource" : {
        "resourceType" : "PractitionerRole",
        "id" : "f002-0",
        "text" : {
          "status" : "generated",
          "div" : "<div xmlns=\"http://www.w3.org/1999/xhtml\">\n            <span style=\"color: gray;\">practitioner:</span> Pieter Voigt<br/><span style=\"color: gray;\">organization:</span> BMC<br/><span style=\"color: gray;\">role:</span> Care role\n          </div>"
        },
        "practitioner" : {
          "reference" : "Practitioner/f002",
          "display" : "Pieter Voigt"
        },
        "organization" : {
          "reference" : "Organization/f001",
          "display" : "BMC"
        },
        "code" : [{
          "coding" : [{
            "system" : "http://snomed.info/sct",
            "code" : "17561000",
            "display" : "Cardiologist"
          }]
        }],
        "specialty" : [{
          "coding" : [{
            "system" : "http://snomed.info/sct",
            "code" : "394603008",
            "display" : "Cardiothoracic surgery"
          }]
        }]
      }
    },
    {
      "fullUrl" : "http://hl7.org/fhir/PractitionerRole/f204-0",
      "resource" : {
        "resourceType" : "PractitionerRole",
        "id" : "f204-0",
        "text" : {
          "status" : "generated",
          "div" : "<div xmlns=\"http://www.w3.org/1999/xhtml\">\n            <span style=\"color: gray;\">practitioner:</span> Carla Espinosa<br/><span style=\"color: gray;\">organization:</span> AUMC<br/><span style=\"color: gray;\">role:</span> Renal nurse\n          </div>"
        },
        "practitioner" : {
          "reference" : "Practitioner/f204",
          "display" : "Carla Espinosa"
        },
        "organization" : {
          "reference" : "Organization/f201",
          "display" : "AUMC"
        },
        "code" : [{
          "coding" : [{
            "system" : "http://snomed.info/sct",
            "code" : "224565004",
            "display" : "Renal nurse"
          }]
        }],
        "specialty" : [{
          "coding" : [{
            "system" : "http://snomed.info/sct",
            "code" : "394618009",
            "display" : "Hospital nurse"
          }]
        }]
      }
    }
  ]
}